Folder: data/csv

File: xrd.csv
time,CapMrktEstUSD,ReferenceRate,ReferenceRateBTC,ReferenceRateETH,ReferenceRateEUR,ReferenceRateUSD,volume_reported_spot_usd_1d
2022-03-14,1.14906e+09,,,,,,129399
2022-03-20,1.20591e+09,,,,,,98717.7
2022-03-26,1.44803e+09,,,,,,109113
2022-04-01,1.48147e+09,,,,,,275067
2022-04-07,1.3705e+09,,,,,,347174
2022-04-13,1.35329e+09,,,,,,313588
2022-04-19,1.34464e+09,,,,,,193006
2022-04-25,1.23067e+09,,,,,,285724
2022-05-01,1.11926e+09,,,,,,287227
2022-05-07,1.11446e+09,,,,,,234915
2022-05-13,8.70603e+08,,,,,,504598
2022-05-19,8.33005e+08,,,,,,87873.1
2022-05-25,8.81174e+08,,,,,,109860
2022-05-31,8.60145e+08,,,,,,155877
2022-06-06,8.03637e+08,,,,,,273103
2022-06-12,6.90892e+08,,,,,,219342
2022-06-18,6.13559e+08,,,,,,156420
2022-06-24,6.82302e+08,,,,,,90346.9
2022-06-30,6.35762e+08,,,,,,113380
2022-07-06,6.20892e+08,,,,,,33871.1
2022-07-12,6.13913e+08,,,,,,149918
2022-07-18,6.62886e+08,,,,,,160446
2022-07-24,6.33796e+08,,,,,,201498
2022-07-30,6.36443e+08,,,,,,162480
2022-08-05,6.04888e+08,,,,,,118200
2022-08-11,6.35684e+08,,,,,,177433
2022-08-17,6.10865e+08,,,,,,202444
2022-08-23,6.16322e+08,,,,,,204598
2022-08-29,5.92399e+08,,,,,,151950
2022-09-04,5.60661e+08,,,,,,103212
2022-09-10,5.91036e+08,,,,,,123481
2022-09-16,5.94833e+08,,,,,,154989
2022-09-22,5.93506e+08,,,,,,140784
2022-09-28,6.06991e+08,,,,,,256264
2022-10-04,5.81224e+08,,,,,,210339
2022-10-10,5.69894e+08,,,,,,213300
2022-10-16,5.49923e+08,,,,,,69873.4
2022-10-22,4.99023e+08,,,,,,144612
2022-10-28,5.60093e+08,,,,,,726592
2022-11-03,5.10427e+08,,,,,,250572
2022-11-09,4.90522e+08,,,,,,651217
2022-11-15,5.13627e+08,,,,,,411652
2022-11-21,4.02917e+08,,,,,,242048
2022-11-27,3.7126e+08,,,,,,206093
2022-12-03,3.63782e+08,,,,,,174715
2022-12-09,4.12225e+08,,,,,,1.5648e+06
2022-12-15,3.87118e+08,,,,,,142630
2022-12-21,3.53758e+08,,,,,,86232.9
2022-12-27,3.47606e+08,,,,,,112388
2023-01-02,3.44049e+08,,,,,,102294
2023-01-08,3.45256e+08,,,,,,124385
2023-01-14,4.0652e+08,,,,,,751930
2023-01-20,4.18309e+08,,,,,,292225
2023-01-26,4.25355e+08,,,,,,187570
2023-02-01,5.92847e+08,,,,,,551672
2023-02-07,5.09301e+08,,,,,,366816
2023-02-13,4.84069e+08,,,,,,383272
2023-02-19,4.91676e+08,,,,,,144600
2023-02-25,4.58039e+08,,,,,,357389
2023-03-03,4.31294e+08,,,,,,288466
2023-03-09,3.93199e+08,,,,,,688244
2023-03-15,3.77672e+08,,,,,,877512
2023-03-21,4.23594e+08,,,,,,664500
2023-03-27,4.16128e+08,,,,,,833224
2023-04-02,4.24506e+08,,,,,,2.38511e+06
2023-04-08,5.66466e+08,,,,,,4.56402e+06
2023-04-14,7.55616e+08,,,,,,1.03167e+07
2023-04-20,9.91509e+08,,,,,,1.34711e+07
2023-04-26,1.05064e+09,,,,,,1.37009e+07
2023-05-02,9.36726e+08,,,,,,5.61535e+06
2023-05-08,8.30353e+08,,,,,,6.16401e+06
2023-05-14,7.38721e+08,,,,,,1.64457e+06
2023-05-20,7.34882e+08,,,,,,1.48369e+06
2023-05-26,7.0514e+08,,,,,,2.3272e+06
2023-06-01,6.91067e+08,,,,,,2.49966e+06
2023-06-07,6.99811e+08,,,,,,3.48541e+06
2023-06-13,6.09026e+08,,,,,,1.91278e+06
2023-06-19,5.96666e+08,,,,,,1.67451e+06
2023-06-25,7.93721e+08,,,,,,2.57198e+06
2023-07-01,6.37601e+08,,,,,,1.8372e+06
2023-07-07,5.92312e+08,,,,,,2.01566e+06
2023-07-13,6.61726e+08,,,,,,5.44758e+06
2023-07-19,6.09465e+08,,,,,,2.39739e+06
2023-07-25,5.79536e+08,,,,,,1.13512e+06
2023-07-31,5.6333e+08,,,,,,785520
2023-08-06,5.3519e+08,,,,,,830139
2023-08-12,5.82034e+08,,,,,,1.94292e+06
2023-08-18,5.40395e+08,,,,,,828312
2023-08-24,5.40893e+08,,,,,,1.55983e+06
2023-08-30,5.40547e+08,,,,,,1.35187e+06
2023-09-05,5.62542e+08,,,,,,1.37739e+06
2023-09-11,5.62417e+08,,,,,,1.78029e+06
2023-09-17,5.63061e+08,,,,,,1.07788e+06
2023-09-23,6.89876e+08,,,,,,4.58239e+06
2023-09-29,5.93443e+08,,,,,,4.56563e+06
2023-10-05,4.96424e+08,,,,,,3.41741e+06
2023-10-11,4.26097e+08,,,,,,2.44257e+06
2023-10-17,4.04221e+08,,,,,,1.00307e+06
2023-10-23,4.47282e+08,,,,,,1.81881e+06
2023-10-29,4.41987e+08,,,,,,1.07e+06
2023-11-04,4.35895e+08,,,,,,1.33838e+06
2023-11-10,4.55331e+08,,,,,,2.08377e+06
2023-11-16,4.76418e+08,,,,,,3.14866e+06
2023-11-22,6.11596e+08,,,,,,4.89588e+06
2023-11-28,5.2383e+08,,,,,,3.18551e+06
2023-12-04,5.29335e+08,,,,,,5.51156e+07
2023-12-10,5.16993e+08,,,,,,2.52136e+06
2023-12-16,4.43021e+08,,,,,,3.12903e+06
2023-12-22,4.82074e+08,,,,,,3.77261e+06
2023-12-28,4.73349e+08,,,,,,9.80898e+06
2024-01-03,4.24596e+08,,,,,,5.64994e+06
2024-01-09,4.13465e+08,,,,,,3.6566e+06
2024-01-15,4.46445e+08,,,,,,3.3246e+06
2024-01-21,4.60792e+08,,,,,,2.2786e+06
2024-01-27,4.41645e+08,,,,,,3.30533e+06
2024-02-02,4.21451e+08,,,,,,1.7132e+06
2024-02-08,4.02948e+08,,,,,,2.00649e+06
2024-02-14,4.50991e+08,,,,,,3.0916e+06
2024-02-20,5.02676e+08,,,,,,6.02764e+06
2024-02-26,4.96577e+08,,,,,,3.60133e+06
2024-03-03,4.68632e+08,,,,,,4.91541e+06
2024-03-09,4.1651e+08,,,,,,2.40441e+06
2024-03-15,6.72518e+08,,,,,,1.12714e+07
2024-03-21,7.13954e+08,,,,,,5.40128e+06
2024-03-27,8.0954e+08,,,,,,7.09456e+06
2024-04-02,7.03778e+08,,,,,,5.20532e+06
2024-04-08,8.04542e+08,,,,,,3.95842e+06
2024-04-14,6.15363e+08,,,,,,3.73934e+06
2024-04-20,5.74011e+08,,,,,,2.39136e+06
2024-04-26,5.35696e+08,,,,,,1.31964e+06
2024-05-02,4.53058e+08,,,,,,4.2294e+06
2024-05-08,4.39513e+08,,,,,,1.31283e+06
2024-05-14,4.46112e+08,,,,,,1.05874e+06
2024-05-20,4.81439e+08,,,,,,1.9344e+06
2024-05-26,4.28182e+08,,,,,,2.09549e+06
2024-06-01,4.07972e+08,,,,,,1.41123e+06
2024-06-07,4.09395e+08,,,,,,2.79845e+06
2024-06-13,3.67259e+08,,,,,,2.20055e+06
2024-06-19,3.42632e+08,,,,,,1.02719e+06
2024-06-25,3.13279e+08,,,,,,1.33162e+06
2024-07-01,3.23012e+08,,,,,,969337
2024-07-07,2.90826e+08,,,,,,1.77727e+06
2024-07-13,2.9237e+08,,,,,,1.12992e+06
2024-07-19,3.05309e+08,,,,,,2.8777e+06
2024-07-25,2.85341e+08,,,,,,995220
2024-07-31,2.92625e+08,,,,,,7.54805e+06
2024-08-06,2.61536e+08,,,,,,1.67673e+06
2024-08-12,2.84832e+08,,,,,,1.16139e+06
2024-08-18,2.49758e+08,,,,,,1.32136e+06
2024-08-24,2.67178e+08,,,,,,1.08694e+06
2024-08-30,2.45071e+08,,,,,,1.11503e+06
2024-09-05,2.31814e+08,,,,,,748211
2024-09-11,2.05355e+08,,,,,,1.44939e+06
2024-09-17,2.1762e+08,,,,,,739058
2024-09-23,2.22605e+08,,,,,,753684
2024-09-29,2.20482e+08,,,,,,1.22004e+06
2024-10-05,1.71517e+08,,,,,,1.12022e+06
2024-10-11,1.58191e+08,,,,,,1.36853e+06
2024-10-17,1.6753e+08,,,,,,564768
2024-10-23,1.64982e+08,,,,,,499327
2024-10-29,1.66431e+08,,,,,,442748
2024-11-04,1.54791e+08,,,,,,380589
2024-11-10,1.82464e+08,,,,,,955257
2024-11-16,1.72777e+08,,,,,,556736
2024-11-22,2.18258e+08,,,,,,2.09473e+06
2024-11-28,2.88574e+08,,,,,,2.52425e+06
2024-12-04,3.61492e+08,,,,,,3.11382e+06
2024-12-10,3.44729e+08,,,,,,3.9948e+06
2024-12-16,3.48787e+08,,,,,,1.87171e+06
2024-12-22,2.6113e+08,,,,,,850803
2024-12-28,2.59306e+08,,,,,,466069
2025-01-03,2.5037e+08,,,,,,376253
2025-01-09,2.01556e+08,,,,,,847865
2025-01-15,2.09419e+08,,,,,,812605
2025-01-21,1.74291e+08,,,,,,763177
2025-01-27,1.26399e+08,,,,,,1.43517e+06
2025-02-02,1.07325e+08,,,,,,1.50056e+06
2025-02-08,1.0153e+08,,,,,,279417
2025-02-14,1.40545e+08,,,,,,928043
2025-02-20,1.26321e+08,,,,,,463080
2025-02-26,1.07532e+08,,,,,,428134
2025-03-04,9.52928e+07,,,,,,381253
2025-03-10,7.37249e+07,,,,,,444625
2025-03-16,7.82934e+07,,,,,,1.06443e+06
2025-03-22,7.81499e+07,,,,,,158006
2025-03-28,9.28423e+07,,,,,,881163
2025-04-03,7.84368e+07,,,,,,374776
2025-04-09,9.69802e+07,,,,,,1.85355e+06
2025-04-15,1.03493e+08,,,,,,1.14884e+06
2025-04-21,1.13687e+08,,,,,,675940
2025-04-27,1.00859e+08,,,,,,591476
2025-05-03,8.79071e+07,,,,,,614514
2025-05-09,8.90131e+07,,,,,,595783
2025-05-15,8.06493e+07,,,,,,615426
2025-05-21,8.55192e+07,,,,,,227348
2025-05-27,9.13415e+07,,,,,,462094
2025-06-02,8.17034e+07,,,,,,150810
2025-06-08,6.72823e+07,,,,,,342631
2025-06-14,6.96852e+07,,,,,,214283
2025-06-20,7.79262e+07,,,,,,272358
2025-06-26,8.70622e+07,,,,,,220159
2025-07-02,8.084e+07,,,,,,276806
2025-07-08,7.48111e+07,,,,,,331671
2025-07-14,9.76261e+07,,,,,,504474
2025-07-20,1.01852e+08,,,,,,423902
2025-07-26,9.20171e+07,,,,,,256713
2025-08-01,4.57873e+07,,,,,,905303
2025-08-07,4.65356e+07,,,,,,472331
2025-08-13,7.56161e+07,,,,,,352995
2025-08-19,6.15474e+07,,,,,,470189
2025-08-25,6.01674e+07,,,,,,234491
2025-08-31,5.96154e+07,,,,,,197709
2025-09-06,6.13967e+07,,,,,,352936
2025-09-12,6.97764e+07,,,,,,341009
2025-09-18,5.43409e+07,,,,,,310562
2025-09-24,4.78111e+07,,,,,,458734
2025-09-30,4.48954e+07,,,,,,300201
2025-10-06,4.32189e+07,,,,,,324350
2025-10-12,3.41358e+07,,,,,,325468
2025-10-18,3.0923e+07,,,,,,159452
2025-10-24,3.17816e+07,,,,,,166273
2025-10-30,3.31272e+07,,,,,,149849
2025-11-05,3.07996e+07,,,,,,172630
2025-11-11,3.13408e+07,,,,,,161073
2025-11-17,3.14998e+07,,,,,,197464
2025-11-23,2.74323e+07,,,,,,212478
2025-11-29,2.7353e+07,0.00210594,2.31447e-08,6.93787e-07,0.00181684,0.00210594,138441
2025-12-01,,0.00208865,2.30515e-08,6.9561e-07,0.00180134,0.00208865,